All Tick Marks (Hz):
14.2500, 15.2500, 16.2500, 17.2500, 18.2500, 19.2500, 20.2500, 21.2500, 22.2500, 23.2500, 24.2500, 25.2500, 26.2500, 27.2500, 28.2500, 29.2500, 30.7500, 32.2500, 33.7500, 35.2500, 36.7500, 38.2500, 39.7500, 41.2500, 42.7500, 44.7500, 46.7500, 48.7500, 50.7500, 52.7500, 54.7500, 56.7500, 59.2500, 61.7500, 64.2500, 66.7500, 69.2500, 71.7500, 74.7500, 77.7500, 80.7500, 83.7500, 86.7500, 90.2500, 93.7500, 97.2500, 100.7500, 104.7500, 108.7500, 112.7500, 116.7500, 121.2500, 125.7500, 130.2500, 135.2500, 140.2500, 145.2500, 150.7500, 156.2500, 162.2500, 168.2500, 174.2500, 180.7500, 187.2500, 194.2500, 201.2500, 208.7500, 216.2500, 224.2500, 232.2500, 240.7500, 249.2500, 258.2500, 267.7500, 277.2500, 287.2500, 297.7500, 308.7500, 319.7500, 331.2500, 343.2500, 355.7500, 368.7500, 382.2500, 395.7500, 409.7500, 424.2500, 439.2500, 454.7500, 471.2500, 488.2500, 505.7500, 523.7500, 542.2500, 561.7500, 581.7500, 602.7500, 624.2500, 646.7500, 669.7500, 693.7500, 718.2500, 743.7500, 770.2500, 797.7500, 826.2500, 855.7500, 886.2500, 917.7500, 950.2500, 984.2500, 1019.2500, 1055.2500, 1092.7500, 1131.7500, 1171.7500, 1213.2500, 1256.2500, 1300.7500, 1346.7500, 1394.2500, 1443.7500, 1494.7500, 1547.7500, 1602.7500, 1659.7500, 1718.7500, 1779.7500, 1842.7500, 1907.7500, 1975.2500, 2045.2500, 2117.7500, 2192.7500, 2270.2500, 2350.7500, 2433.7500, 2519.7500, 2608.7500, 2700.7500, 2796.2500, 2895.2500, 2997.7500, 3103.7500, 3213.2500, 3326.7500, 3444.2500, 3565.7500, 3691.7500, 3822.2500, 3957.2500, 4097.2500, 4241.7500, 4391.7500, 4546.7500, 4707.2500, 4873.7500, 5045.7500, 5223.7500, 5408.2500, 5599.2500, 5796.7500, 6001.2500, 6213.2500, 6432.7500, 6659.7500, 6894.7500

Labeled Tick Marks (Divisible by 5):
